{
  "resourceType": "Bundle",
  "id": "555-42-23-5",
  "meta": {
    "profile": [ "https://demis.rki.de/fhir/StructureDefinition/NotificationBundleLaboratoryAnonymous" ]
  },
  "identifier": {
    "system": "https://demis.rki.de/fhir/NamingSystem/NotificationBundleId",
    "value": "555-42-23-6"
  },
  "type": "document",
  "timestamp": "2024-03-14T14:45:00.000+01:00",
  "entry": [ {
    "fullUrl": "https://demis.rki.de/fhir/Composition/555-42-23-13",
    "resource": {
      "resourceType": "Composition",
      "id": "555-42-23-13",
      "meta": {
        "profile": [ "https://demis.rki.de/fhir/StructureDefinition/NotificationLaboratoryAnonymous" ]
      },
      "identifier": {
        "system": "https://demis.rki.de/fhir/NamingSystem/NotificationId",
        "value": "555-42-23-12"
      },
      "status": "final",
      "type": {
        "coding": [ {
          "system": "http://loinc.org",
          "code": "34782-3",
          "display": "Infectious disease Note"
        } ]
      },
      "category": [ {
        "coding": [ {
          "system": "http://loinc.org",
          "code": "11502-2",
          "display": "Laboratory report"
        } ]
      } ],
      "subject": {
        "reference": "Patient/555-42-23-7"
      },
      "date": "2024-03-14T14:45:00+01:00",
      "author": [ {
        "reference": "PractitionerRole/555-42-23-2"
      } ],
      "title": "Erregernachweismeldung",
      "relatesTo": [ {
        "code": "appends",
        "targetReference": {
          "type": "Composition",
          "identifier": {
            "system": "https://demis.rki.de/fhir/NamingSystem/NotificationId",
            "value": "12345"
          }
        }
      } ],
      "section": [ {
        "code": {
          "coding": [ {
            "system": "http://loinc.org",
            "code": "11502-2",
            "display": "Laboratory report"
          } ]
        },
        "entry": [ {
          "reference": "DiagnosticReport/555-42-23-11"
        } ]
      } ]
    }
  }, {
    "fullUrl": "https://demis.rki.de/fhir/Patient/555-42-23-7",
    "resource": {
      "resourceType": "Patient",
      "id": "555-42-23-7",
      "meta": {
        "profile": [ "https://demis.rki.de/fhir/StructureDefinition/NotifiedPersonAnonymous" ]
      },
      "address": [ {
        "extension": [ {
          "url": "https://demis.rki.de/fhir/StructureDefinition/AddressUse",
          "valueCoding": {
            "system": "https://demis.rki.de/fhir/CodeSystem/addressUse",
            "code": "current",
            "display": "Derzeitiger Aufenthaltsort"
          }
        } ],
        "postalCode": "123"
      } ]
    }
  }, {
    "fullUrl": "https://demis.rki.de/fhir/PractitionerRole/555-42-23-2",
    "resource": {
      "resourceType": "PractitionerRole",
      "id": "555-42-23-2",
      "meta": {
        "profile": [ "https://demis.rki.de/fhir/StructureDefinition/NotifierRole" ]
      },
      "organization": {
        "reference": "Organization/555-42-23-1"
      }
    }
  }, {
    "fullUrl": "https://demis.rki.de/fhir/Organization/555-42-23-1",
    "resource": {
      "resourceType": "Organization",
      "id": "555-42-23-1",
      "meta": {
        "profile": [ "https://demis.rki.de/fhir/StructureDefinition/NotifierFacility" ]
      },
      "identifier": [ {
        "system": "https://fhir.kbv.de/NamingSystem/KBV_NS_Base_BSNR",
        "value": "248123512"
      } ],
      "type": [ {
        "coding": [ {
          "system": "https://demis.rki.de/fhir/CodeSystem/organizationType",
          "code": "othPrivatLab",
          "display": "Sonstige private Untersuchungsstelle"
        } ]
      } ],
      "name": "TEST Organisation",
      "telecom": [ {
        "system": "phone",
        "value": "0182736912388889",
        "use": "work"
      }, {
        "system": "email",
        "value": "testerino@test.de"
      } ],
      "address": [ {
        "line": [ "Im Himmelreich 1" ],
        "city": "Frühling",
        "postalCode": "21481",
        "country": "DE"
      } ],
      "contact": [ {
        "name": {
          "text": "Melderina Melderson",
          "family": "Melderson",
          "given": [ "Melderina" ]
        }
      } ]
    }
  }, {
    "fullUrl": "https://demis.rki.de/fhir/PractitionerRole/555-42-23-4",
    "resource": {
      "resourceType": "PractitionerRole",
      "id": "555-42-23-4",
      "meta": {
        "profile": [ "https://demis.rki.de/fhir/StructureDefinition/SubmittingRole" ]
      },
      "organization": {
        "reference": "Organization/555-42-23-3"
      }
    }
  }, {
    "fullUrl": "https://demis.rki.de/fhir/Organization/555-42-23-3",
    "resource": {
      "resourceType": "Organization",
      "id": "555-42-23-3",
      "meta": {
        "profile": [ "https://demis.rki.de/fhir/StructureDefinition/SubmittingFacility" ]
      },
      "type": [ {
        "coding": [ {
          "system": "https://demis.rki.de/fhir/CodeSystem/organizationType",
          "code": "othPrivatLab",
          "display": "Sonstige private Untersuchungsstelle"
        } ]
      } ],
      "name": "Das Einsenderinstitut",
      "telecom": [ {
        "system": "phone",
        "value": "01231232",
        "use": "work"
      } ],
      "address": [ {
        "line": [ "Am Einsenderdamm 1" ],
        "city": "Einsendercity",
        "postalCode": "21481",
        "country": "DE"
      } ],
      "contact": [ {
        "name": {
          "text": "Frau Dr Einsenderina Einsenderson",
          "family": "Einsenderson",
          "given": [ "Einsenderina" ],
          "prefix": [ "Dr" ]
        },
        "address": {
          "line": [ "Station 9a" ]
        }
      } ]
    }
  }, {
    "fullUrl": "https://demis.rki.de/fhir/Specimen/555-42-23-8",
    "resource": {
      "resourceType": "Specimen",
      "id": "555-42-23-8",
      "meta": {
        "profile": [ "https://demis.rki.de/fhir/StructureDefinition/SpecimenHIVP" ]
      },
      "type": {
        "coding": [ {
          "system": "http://snomed.info/sct",
          "code": "119339001",
          "display": "Stool specimen (specimen)"
        } ]
      },
      "subject": {
        "reference": "Patient/555-42-23-7"
      },
      "receivedTime": "2022-02-20T00:00:00+01:00",
      "collection": {
        "collector": {
          "reference": "PractitionerRole/555-42-23-4"
        },
        "collectedDateTime": "2022-02-19T00:00:00+01:00"
      }
    }
  }, {
    "fullUrl": "https://demis.rki.de/fhir/Observation/555-42-23-9",
    "resource": {
      "resourceType": "Observation",
      "id": "555-42-23-9",
      "meta": {
        "profile": [ "https://demis.rki.de/fhir/StructureDefinition/PathogenDetectionHIVP" ]
      },
      "status": "final",
      "category": [ {
        "coding": [ {
          "system": "http://terminology.hl7.org/CodeSystem/observation-category",
          "code": "laboratory",
          "display": "Laboratory"
        } ]
      } ],
      "code": {
        "coding": [ {
          "system": "http://loinc.org",
          "code": "41852-5",
          "display": "Microorganism or agent identified in Specimen"
        } ]
      },
      "subject": {
        "reference": "Patient/555-42-23-7"
      },
      "valueCodeableConcept": {
        "coding": [ {
          "system": "http://snomed.info/sct",
          "code": "21927003",
          "display": "Bacillus anthracis (organism)"
        } ]
      },
      "interpretation": [ {
        "coding": [ {
          "system": "http://terminology.hl7.org/CodeSystem/v3-ObservationInterpretation",
          "code": "POS"
        } ]
      } ],
      "method": {
        "coding": [ {
          "system": "http://snomed.info/sct",
          "code": "117040002",
          "display": "Nucleic acid sequencing (procedure)"
        } ]
      },
      "specimen": {
        "reference": "Specimen/555-42-23-8"
      }
    }
  }, {
    "fullUrl": "https://demis.rki.de/fhir/Observation/555-42-23-10",
    "resource": {
      "resourceType": "Observation",
      "id": "555-42-23-10",
      "meta": {
        "profile": [ "https://demis.rki.de/fhir/StructureDefinition/PathogenDetectionHIVP" ]
      },
      "status": "final",
      "category": [ {
        "coding": [ {
          "system": "http://terminology.hl7.org/CodeSystem/observation-category",
          "code": "laboratory",
          "display": "Laboratory"
        } ]
      } ],
      "code": {
        "coding": [ {
          "system": "http://loinc.org",
          "code": "41852-5",
          "display": "Microorganism or agent identified in Specimen"
        } ]
      },
      "subject": {
        "reference": "Patient/555-42-23-7"
      },
      "valueCodeableConcept": {
        "coding": [ {
          "system": "http://snomed.info/sct",
          "code": "409499007",
          "display": "Protective antigen of anthrax toxin (substance)"
        } ]
      },
      "interpretation": [ {
        "coding": [ {
          "system": "http://terminology.hl7.org/CodeSystem/v3-ObservationInterpretation",
          "code": "POS"
        } ]
      } ],
      "method": {
        "coding": [ {
          "system": "http://snomed.info/sct",
          "code": "117040002",
          "display": "Nucleic acid sequencing (procedure)"
        } ]
      },
      "specimen": {
        "reference": "Specimen/555-42-23-8"
      }
    }
  }, {
    "fullUrl": "https://demis.rki.de/fhir/DiagnosticReport/555-42-23-11",
    "resource": {
      "resourceType": "DiagnosticReport",
      "id": "555-42-23-11",
      "meta": {
        "profile": [ "https://demis.rki.de/fhir/StructureDefinition/LaboratoryReportHIVP" ]
      },
      "basedOn": [ {
        "type": "ServiceRequest",
        "identifier": {
          "system": "https://demis.rki.de/fhir/NamingSystem/ServiceRequestId",
          "value": "1a2b3c"
        }
      } ],
      "status": "final",
      "code": {
        "coding": [ {
          "system": "https://demis.rki.de/fhir/CodeSystem/notificationCategory",
          "code": "HIVP",
          "display": "Humanes Immundefizienz-Virus (HIV)"
        } ]
      },
      "subject": {
        "reference": "Patient/555-42-23-7"
      },
      "issued": "2024-03-14T14:45:00.000+01:00",
      "result": [ {
        "reference": "Observation/555-42-23-9"
      }, {
        "reference": "Observation/555-42-23-10"
      } ],
      "conclusionCode": [ {
        "coding": [ {
          "system": "https://demis.rki.de/fhir/CodeSystem/conclusionCode",
          "code": "pathogenDetected"
        } ]
      } ]
    }
  } ]
}
