{
  "resourceType": "Bundle",
  "meta": {
    "lastUpdated": "2022-03-10T14:58:51.377+01:00",
    "profile": [ "https://demis.rki.de/fhir/StructureDefinition/NotificationBundleDiseaseNonNominal" ]
  },
  "identifier": {
    "system": "https://demis.rki.de/fhir/NamingSystem/NotificationBundleId",
    "value": "2d66a331-102a-4047-b666-1b2f18ee955e"
  },
  "type": "document",
  "timestamp": "2022-03-10T14:57:51.377+01:00",
  "entry": [ {
    "fullUrl": "https://demis.rki.de/fhir/Composition/9bb7aeba-581a-47ce-8791-5cdb319d6267",
    "resource": {
      "resourceType": "Composition",
      "id": "9bb7aeba-581a-47ce-8791-5cdb319d6267",
      "meta": {
        "profile": [ "https://demis.rki.de/fhir/StructureDefinition/NotificationDiseaseNonNominalHIVD" ]
      },
      "identifier": {
        "system": "https://demis.rki.de/fhir/NamingSystem/NotificationId",
        "value": "7f562b87-f2c2-4e9d-b3fc-37f6b5dca3a5"
      },
      "status": "final",
      "type": {
        "coding": [ {
          "system": "http://loinc.org",
          "code": "34782-3",
          "display": "Infectious disease Note"
        } ]
      },
      "category": [ {
        "coding": [ {
          "system": "https://demis.rki.de/fhir/CodeSystem/notificationType",
          "code": "7.3",
          "display": "Meldung gemäß IfSG §7 Absatz 3"
        } ]
      } ],
      "subject": {
        "reference": "Patient/458a9cb4-1e94-424e-bfd2-64cbd3efa41e"
      },
      "date": "2022-03-10T14:57:52+01:00",
      "author": [ {
        "reference": "PractitionerRole/dec9b121-b3fa-4815-8825-ca5c06a4c22d"
      } ],
      "title": "Meldung gemäß §7 Absatz 3 IfSG",
      "section": [ {
        "title": "Diagnose",
        "code": {
          "coding": [ {
            "system": "https://demis.rki.de/fhir/CodeSystem/sectionCode",
            "code": "diagnosis",
            "display": "Diagnose"
          } ]
        },
        "entry": [ {
          "reference": "Condition/0b435ebe-a544-4a70-ada0-90bc5c9777df"
        } ]
      }, {
        "title": "Meldetatbestandsspezifische klinische und epidemiologische Angaben",
        "code": {
          "coding": [ {
            "system": "https://demis.rki.de/fhir/CodeSystem/sectionCode",
            "code": "specificClinAndEpiInformation",
            "display": "Meldetatbestandsspezifische klinische und epidemiologische Angaben"
          } ]
        },
        "entry": [ {
          "reference": "QuestionnaireResponse/f9605664-9301-4588-9cf5-a4ec796c57db"
        } ]
      } ]
    }
  }, {
    "fullUrl": "https://demis.rki.de/fhir/Organization/0ec30241-eabc-4529-9060-2a93f2732cd0",
    "resource": {
      "resourceType": "Organization",
      "id": "0ec30241-eabc-4529-9060-2a93f2732cd0",
      "meta": {
        "profile": [ "https://demis.rki.de/fhir/StructureDefinition/NotifiedPersonFacility" ]
      },
      "identifier": [ {
        "system": "https://fhir.kbv.de/NamingSystem/KBV_NS_Base_BSNR",
        "value": "123456789"
      } ],
      "type": [ {
        "coding": [ {
          "system": "https://demis.rki.de/fhir/CodeSystem/organizationType",
          "code": "hospital",
          "display": "Krankenhaus"
        } ]
      } ],
      "name": "TEST Organisation",
      "telecom": [ {
        "system": "phone",
        "value": "01234567"
      }, {
        "system": "email",
        "value": "anna@ansprechpartner.de"
      } ],
      "address": [ {
        "line": [ "Krankenhausstraße 1" ],
        "_line": [ {
          "extension": [ {
            "url": "http://hl7.org/fhir/StructureDefinition/iso21090-ADXP-streetName",
            "valueString": "Krankenhausstraße"
          }, {
            "url": "http://hl7.org/fhir/StructureDefinition/iso21090-ADXP-houseNumber",
            "valueString": "1"
          } ]
        } ],
        "city": "Buchhorst",
        "postalCode": "21481",
        "country": "20422"
      } ],
      "contact": [ {
        "name": {
          "text": "Frau Dr. Anna Beate Carolin Ansprechpartner",
          "family": "Ansprechpartner",
          "given": [ "Anna", "Beate", "Carolin" ],
          "prefix": [ "Dr." ]
        }
      } ]
    }
  }, {
    "fullUrl": "https://demis.rki.de/fhir/Patient/458a9cb4-1e94-424e-bfd2-64cbd3efa41e",
    "resource": {
      "resourceType": "Patient",
      "id": "458a9cb4-1e94-424e-bfd2-64cbd3efa41e",
      "meta": {
        "profile": [ "https://demis.rki.de/fhir/StructureDefinition/NotifiedPerson" ]
      },
      "name": [ {
        "use": "official",
        "family": "Betroffen",
        "given": [ "Bertha-Luise", "Hanna", "Karin" ]
      } ],
      "telecom": [ {
        "system": "phone",
        "value": "01234567"
      }, {
        "system": "email",
        "value": "bertha@betroffen.de"
      } ],
      "gender": "female",
      "birthDate": "1999-06-09",
      "address": [ {
        "extension": [ {
          "url": "https://demis.rki.de/fhir/StructureDefinition/AddressUse",
          "valueCoding": {
            "system": "https://demis.rki.de/fhir/CodeSystem/addressUse",
            "code": "primary",
            "display": "Hauptwohnsitz"
          }
        } ],
        "line": [ "Berthastraße 123" ],
        "_line": [ {
          "extension": [ {
            "url": "http://hl7.org/fhir/StructureDefinition/iso21090-ADXP-streetName",
            "valueString": "Berthastraße"
          }, {
            "url": "http://hl7.org/fhir/StructureDefinition/iso21090-ADXP-houseNumber",
            "valueString": "123"
          } ]
        } ],
        "city": "Betroffenenstadt",
        "postalCode": "12345",
        "country": "20422"
      }, {
        "extension": [ {
          "url": "https://demis.rki.de/fhir/StructureDefinition/AddressUse",
          "valueCoding": {
            "system": "https://demis.rki.de/fhir/CodeSystem/addressUse",
            "code": "current",
            "display": "Derzeitiger Aufenthaltsort"
          }
        }, {
          "url": "https://demis.rki.de/fhir/StructureDefinition/FacilityAddressNotifiedPerson",
          "valueReference": {
            "reference": "Organization/0ec30241-eabc-4529-9060-2a93f2732cd0"
          }
        } ]
      } ]
    }
  }, {
    "fullUrl": "https://demis.rki.de/fhir/Condition/0b435ebe-a544-4a70-ada0-90bc5c9777df",
    "resource": {
      "resourceType": "Condition",
      "id": "0b435ebe-a544-4a70-ada0-90bc5c9777df",
      "meta": {
        "profile": [ "https://demis.rki.de/fhir/StructureDefinition/DiseaseHIVD" ]
      },
      "verificationStatus": {
        "coding": [ {
          "system": "http://terminology.hl7.org/CodeSystem/condition-ver-status",
          "code": "confirmed"
        } ]
      },
      "code": {
        "coding": [ {
          "system": "https://demis.rki.de/fhir/CodeSystem/notificationDiseaseCategory",
          "code": "hivd",
          "display": "Coronavirus-Krankheit-2019 (COVID-19)"
        } ]
      },
      "subject": {
        "reference": "Patient/458a9cb4-1e94-424e-bfd2-64cbd3efa41e"
      },
      "onsetDateTime": "2022-01-01",
      "recordedDate": "2022-01-02",
      "evidence": [ {
        "code": [ {
          "coding": [ {
            "system": "http://snomed.info/sct",
            "code": "386661006",
            "display": "Fever (finding)"
          } ]
        } ]
      } ],
      "note": [ {
        "text": "Textueller Hinweis"
      } ]
    }
  }, {
    "fullUrl": "https://demis.rki.de/fhir/Organization/2ac04fbc-e807-4eb1-a07e-8a941ae1b7d7",
    "resource": {
      "resourceType": "Organization",
      "id": "2ac04fbc-e807-4eb1-a07e-8a941ae1b7d7",
      "meta": {
        "profile": [ "https://demis.rki.de/fhir/StructureDefinition/NotifierFacility" ]
      },
      "identifier": [ {
        "system": "https://fhir.kbv.de/NamingSystem/KBV_NS_Base_BSNR",
        "value": "123456789"
      } ],
      "type": [ {
        "coding": [ {
          "system": "https://demis.rki.de/fhir/CodeSystem/organizationType",
          "code": "hospital",
          "display": "Krankenhaus"
        } ]
      } ],
      "name": "TEST Organisation",
      "telecom": [ {
        "system": "phone",
        "value": "01234567"
      }, {
        "system": "email",
        "value": "anna@ansprechpartner.de"
      } ],
      "address": [ {
        "line": [ "Krankenhausstraße 1" ],
        "_line": [ {
          "extension": [ {
            "url": "http://hl7.org/fhir/StructureDefinition/iso21090-ADXP-streetName",
            "valueString": "Krankenhausstraße"
          }, {
            "url": "http://hl7.org/fhir/StructureDefinition/iso21090-ADXP-houseNumber",
            "valueString": "1"
          } ]
        } ],
        "city": "Buchhorst",
        "postalCode": "21481",
        "country": "20422"
      } ],
      "contact": [ {
        "name": {
          "text": "Frau Dr. Anna Beate Carolin Ansprechpartner",
          "family": "Ansprechpartner",
          "given": [ "Anna", "Beate", "Carolin" ],
          "prefix": [ "Dr." ]
        }
      } ]
    }
  }, {
    "fullUrl": "https://demis.rki.de/fhir/PractitionerRole/dec9b121-b3fa-4815-8825-ca5c06a4c22d",
    "resource": {
      "resourceType": "PractitionerRole",
      "id": "dec9b121-b3fa-4815-8825-ca5c06a4c22d",
      "meta": {
        "profile": [ "https://demis.rki.de/fhir/StructureDefinition/NotifierRole" ]
      },
      "organization": {
        "reference": "Organization/2ac04fbc-e807-4eb1-a07e-8a941ae1b7d7"
      }
    }
  }, {
    "fullUrl": "https://demis.rki.de/fhir/Organization/38da54d4-03b4-4cc3-be8a-f9c54e12d4a2",
    "resource": {
      "resourceType": "Organization",
      "id": "38da54d4-03b4-4cc3-be8a-f9c54e12d4a2",
      "meta": {
        "profile": [ "http://hl7.org/fhir/StructureDefinition/Organization" ]
      },
      "name": "Labor",
      "address": [ {
        "line": [ "Laborstraße 345" ],
        "_line": [ {
          "extension": [ {
            "url": "http://hl7.org/fhir/StructureDefinition/iso21090-ADXP-streetName",
            "valueString": "Laborstraße"
          }, {
            "url": "http://hl7.org/fhir/StructureDefinition/iso21090-ADXP-houseNumber",
            "valueString": "345"
          } ]
        } ],
        "city": "Buchhorst",
        "postalCode": "21481",
        "country": "20422"
      } ]
    }
  }, {
    "fullUrl": "https://demis.rki.de/fhir/Organization/26d231c9-f6f0-4186-97b6-787d885801b0",
    "resource": {
      "resourceType": "Organization",
      "id": "26d231c9-f6f0-4186-97b6-787d885801b0",
      "meta": {
        "profile": [ "http://hl7.org/fhir/StructureDefinition/Organization" ]
      },
      "name": "Einrichtungsname",
      "telecom": [ {
        "system": "phone",
        "value": "0123456789"
      }, {
        "system": "email",
        "value": "mail@einrichtung.de"
      } ],
      "address": [ {
        "line": [ "Straße 123" ],
        "_line": [ {
          "extension": [ {
            "url": "http://hl7.org/fhir/StructureDefinition/iso21090-ADXP-streetName",
            "valueString": "Straße"
          }, {
            "url": "http://hl7.org/fhir/StructureDefinition/iso21090-ADXP-houseNumber",
            "valueString": "123"
          } ]
        } ],
        "city": "Buchhorst",
        "postalCode": "21481",
        "country": "20422"
      } ]
    }
  }, {
    "fullUrl": "https://demis.rki.de/fhir/QuestionnaireResponse/f9605664-9301-4588-9cf5-a4ec796c57db",
    "resource": {
      "resourceType": "QuestionnaireResponse",
      "id": "f9605664-9301-4588-9cf5-a4ec796c57db",
      "meta": {
        "profile": [ "https://demis.rki.de/fhir/StructureDefinition/DiseaseInformationHIVD" ]
      },
      "questionnaire": "https://demis.rki.de/fhir/Questionnaire/DiseaseQuestionsHIVD",
      "status": "completed",
      "subject": {
        "reference": "Patient/458a9cb4-1e94-424e-bfd2-64cbd3efa41e"
      },
      "item": [ {
        "linkId": "firstDiagnosisGER",
        "answer": [ {
          "valueCoding": {
            "system": "https://demis.rki.de/fhir/ValueSet/yesOrNoOrNoInformation-SNOMED",
            "code": "yes",
            "display": "Ja"
          }
        } ]
      }, {
        "linkId": "firstPosTest",
        "answer": [ {
          "valueDate": "2022-01-22"
        } ]
      }, {
        "linkId": "firstDiagnosisAbroad",
        "answer": [ {
          "valueCoding": {
            "system": "https://demis.rki.de/fhir/CodeSystem/yesOrNoAnswer",
            "code": "yes",
            "display": "Ja"
          },
          "item": [ {
            "linkId": "firstDiagnosisCountry",
            "answer": [ {
              "valueCoding": {
                "system": "urn:iso:std:iso:3166",
                "code": "FR",
                "display": "Frankreich"
              }
            } ]
          } ]
        } ]
      }, {
        "linkId": "countryOrigin",
        "answer": [ {
          "valueCoding": {
            "system": "urn:iso:std:iso:3166",
            "code": "FR",
            "display": "Frankreich"
          }
        } ],
        "item": [ {
          "linkId": "countryOriginOfInfection",
          "answer": [ {
            "valueCoding": {
              "system": "urn:iso:std:iso:3166",
              "code": "FR",
              "display": "Frankreich"
            }
          } ]
        } ]
      }, {
        "linkId": "indicatorDiseaseHIVD",
        "answer": [ {
          "valueCoding": {
            "system": "https://demis.rki.de/fhir/CodeSystem/indicatorDiseaseHIVD",
            "code": "260413007",
            "display": "Keine"
          }
        } ]
      }, {
        "linkId": "lastNegTest",
        "answer": [ {
          "valueDate": "2022-01-15"
        } ]
      }, {
        "linkId": "countryOrigin",
        "answer": [ {
          "valueCoding": {
            "system": "urn:iso:std:iso:3166",
            "code": "DE",
            "display": "Germany"
          }
        } ]
      }, {
        "linkId": "indicatorDiseaseHIVD",
        "answer": [ {
          "valueCoding": {
            "system": "http://snomed.info/sct",
            "code": "260413007",
            "display": "Keine"
          }
        } ]
      }, {
        "linkId": "hivPrEPStatus",
        "answer": [ {
          "valueCoding": {
            "system": "https://demis.rki.de/fhir/CodeSystem/yesOrNoAnswer",
            "code": "no",
            "display": "Nein"
          }
        } ]
      }, {
        "linkId": "sexWork",
        "answer": [ {
          "valueCoding": {
            "system": "http://snomed.info/sct",
            "code": "53713009",
            "display": "Ausübung von Sexarbeit"
          }
        } ]
      } ]
    }
  }, {
    "fullUrl": "https://demis.rki.de/fhir/Provenance/0161eba5-e6b2-401f-8966-2d1559abca56",
    "resource": {
      "resourceType": "Provenance",
      "id": "0161eba5-e6b2-401f-8966-2d1559abca56",
      "meta": {
        "profile": [ "https://demis.rki.de/fhir/StructureDefinition/DemisProvenance" ]
      },
      "target": [ {
        "reference": "Composition/555-42-23-13"
      } ],
      "recorded": "2024-04-11T13:44:46.765+02:00",
      "activity": {
        "coding": [ {
          "system": "http://terminology.hl7.org/CodeSystem/v3-DataOperation",
          "code": "CREATE"
        } ]
      },
      "agent": [ {
        "extension": [ {
          "url": null,
          "valueCodeableConcept": {
            "coding": [ {
              "system": "https://demis.rki.de/fhir/CodeSystem/levelOfAssurance",
              "code": "substantial"
            } ]
          }
        }, {
          "url": null,
          "valueCodeableConcept": {
            "coding": [ {
              "system": "https://demis.rki.de/fhir/CodeSystem/organizationType",
              "code": "1.2.276.0.76.4.53"
            } ]
          }
        } ],
        "type": {
          "coding": [ {
            "system": "http://terminology.hl7.org/CodeSystem/provenance-participant-type",
            "code": "performer"
          } ]
        },
        "role": [ {
          "coding": [ {
            "system": "http://terminology.hl7.org/CodeSystem/v3-ParticipationType",
            "code": "AUT"
          } ]
        } ],
        "who": {
          "type": "organization",
          "identifier": {
            "type": {
              "coding": [ {
                "system": "http://terminology.hl7.org/CodeSystem/v2-0203",
                "code": "AN"
              } ]
            },
            "system": "urn.ietf:rfc:3986",
            "value": "urn:uuid:9569bc96-6c32-469c-9907-f8579ef3df70"
          }
        },
        "onBehalfOf": {
          "type": "organization",
          "identifier": {
            "type": {
              "coding": [ {
                "system": "http://terminology.hl7.org/CodeSystem/v2-0203",
                "code": "PRN"
              } ]
            },
            "system": "https://gematik.de/fhir/sid/telematik-id",
            "value": "5-2-123494546"
          }
        }
      } ],
      "entity": [ {
        "role": "source",
        "what": {
          "type": "Endpoint",
          "identifier": {
            "type": {
              "coding": [ {
                "system": "http://terminology.hl7.org/CodeSystem/v2-0203",
                "code": "RI"
              } ]
            },
            "system": "https://demis.rki.de/fhir/sid/DemisClientId",
            "value": "meldeportal"
          }
        }
      } ]
    }
  }]
}
